Folder: Github-Tut/DataAnalysisMS-main/DataAnalysisMS-main/Spyder

File: ECdata.txt
EC-Lab ASCII FILE
Nb header lines : 70

Cyclic Voltammetry Advanced

Run on channel : 1 (SN 1732)
User :
Electrode connection : standard
Ewe ctrl range : min = -10,00 V, max = 10,00 V
Ewe,I filtering : 50 kHz
Safety Limits :
	Do not start on E overload
Channel : Grounded
Acquisition started on : 06/21/2021 17:22:49.735
Loaded Setting File :  NONE
Saved on :
	File : Cubes_Tim_01MKHCO3_21062021_B_t1_02_CVA_C01.mpr
	Directory : C:\Users\DEMS 2019\Documents\EC-Lab\Data\Jorge\
	Host : 192.168.1.101
Device : SP-200 (SN 0161)
Address : USB
EC-Lab for windows v11.36 (software)
Internet server v11.36 (firmware)
Command interpretor v11.36 (firmware)
Electrode material :
Initial state :
Electrolyte :
Comments :
Cable : standard
Reference electrode : SCE Saturated Calomel Electrode (0,241 V)
Electrode surface area : 0,001 cmÂ²
Characteristic mass : 0,001 g
Equivalent Weight : 0,000 g/eq.
Density : 0,000 g/cm3
Cycle Definition : Charge/Discharge alternance
Ei (V)              -0,010
vs.                 Ref
ti (h:m:s)          0:00:0,0000
dti (s)             1,0000
dE/dt               10,000
dE/dt unit          mV/s
E1 (V)              0,540
vs.                 Ref
t1 (h:m:s)          0:00:0,0000
dt1 (s)             0,0000
Step percent        50
N                   20
E range min (V)     -10,000
E range max (V)     10,000
I Range             100 mA
I Range min         Unset
I Range max         Unset
I Range init        Unset
Bandwidth           6
E2 (V)              -1,250
vs.                 Ref
t2 (h:m:s)          0:00:0,0000
dt2 (s)             0,1000
nc cycles           200
nr                  1
Reverse Scan        1
Ef (V)              0,490
vs.                 Ref
tf (h:m:s)          0:10:0,0000
dtf (s)             0,1000

Number of loops : 1
Loop 0 from point number 0 to 9824

mode	ox/red	error	control changes	Ns changes	counter inc.	time/s	control/V	Ewe/V	<I>/mA	cycle number	(Q-Qo)/C	I Range	P/W
2	0	0	0	0	0	3,287859916937305E+001	-9,9525508E-003	-1,0446908E-002	-9,174361079931259E-002	1,000000000000000E+000	0,0000000E+000	38	9,5843711E-007
2	0	0	1	0	0	1,275662967773605E+002	1,4285174E-001	1,4247145E-001	-4,105054342595327E-002	1,000000000000000E+000	-1,7474003E-003	38	-5,8485302E-006
2	0	0	1	0	0	2,242145943358191E+002	-8,2363147E-001	-8,2417011E-001	-5,169736509769095E+000	1,000000000000000E+000	-1,0642575E-001	38	4,2607421E-003
2	0	0	1	0	1	3,198417919200729E+002	-7,1998483E-001	-7,2047585E-001	-2,220970006876442E+000	1,000000000000000E+000	-1,0148964E+000	38	1,6001553E-003
2	0	0	1	0	1	4,152236895105234E+002	2,3383446E-001	2,3346761E-001	-7,212778346093707E-002	2,000000000000000E+000	-1,0633767E+000	38	-1,6839502E-005
2	0	0	1	0	1	5,101945871113567E+002	-1,0376731E-001	-1,0421675E-001	-1,191059684532074E-001	2,000000000000000E+000	-1,0680790E+000	38	1,2412836E-005
2	0	0	1	0	1	6,068429846698127E+002	-1,0702517E+000	-1,0708636E+000	-1,011868105821389E+001	2,000000000000000E+000	-1,3330994E+000	38	1,0835728E-002
2	0	0	1	0	0	7,024701822540665E+002	-4,7336456E-001	-4,7388110E-001	-3,657262538798092E-001	2,000000000000000E+000	-2,0060129E+000	38	1,7331076E-004
2	1	0	1	0	0	7,978520798445170E+002	4,8045415E-001	4,8005143E-001	6,486599792109704E-002	3,000000000000000E+000	-2,0103862E+000	38	3,1139014E-005
2	0	0	1	0	0	8,928229774453503E+002	-3,5038733E-001	-3,5083559E-001	-2,083948018384594E-001	3,000000000000000E+000	-2,0146978E+000	38	7,3112315E-005
2	0	0	1	0	1	9,884501750296040E+002	-1,1932288E+000	-1,1937982E+000	-1,467289308976635E+001	3,000000000000000E+000	-2,5905285E+000	38	1,7516473E-002
2	0	0	1	0	1	1,085098572588060E+003	-2,2674453E-001	-2,2721587E-001	-4,009562967866309E-002	3,000000000000000E+000	-2,9435141E+000	38	9,1103639E-006
2	0	0	1	0	1	1,178803170220883E+003	3,6947456E-001	3,6910835E-001	-1,930244949259352E-002	4,000000000000000E+000	-2,9432287E+000	38	-7,1246955E-006
2	0	0	1	0	1	1,275451367779344E+003	-5,9700733E-001	-5,9746456E-001	-1,141853455580739E+000	4,000000000000000E+000	-2,9619114E+000	38	6,8221695E-004
2	0	0	1	0	0	1,371078565363598E+003	-9,4660878E-001	-9,4713151E-001	-5,777428543209830E+000	4,000000000000000E+000	-3,7412608E+000	38	5,4719849E-003
2	1	0	1	0	0	1,466460562954046E+003	7,2114910E-003	6,8290615E-003	-3,966925223588831E-003	5,000000000000000E+000	-3,8453159E+000	38	-2,7090376E-008
2	0	0	1	0	0	1,561431560554876E+003	1,2285467E-001	1,2246574E-001	-3,224097813296878E-002	5,000000000000000E+000	-3,8450716E+000	38	-3,9484153E-006
2	0	0	1	0	0	1,658079758113337E+003	-8,4362745E-001	-8,4415114E-001	-4,040894530529506E+000	5,000000000000000E+000	-3,9193370E+000	38	3,4111256E-003
2	0	0	1	0	1	1,753706955697591E+003	-6,9998872E-001	-7,0047486E-001	-1,456058957981767E+000	5,000000000000000E+000	-4,7161293E+000	38	1,0199327E-003
2	1	0	1	0	1	1,849088953288039E+003	2,5383148E-001	2,5342017E-001	8,012242455818580E-003	6,000000000000000E+000	-4,7356067E+000	38	2,0304640E-006
2	0	0	1	0	1	1,944059950888870E+003	-1,2376522E-001	-1,2422100E-001	-5,577800964094704E-002	6,000000000000000E+000	-4,7365813E+000	38	6,9288003E-006
2	0	0	1	0	1	2,040708148447331E+003	-1,0902475E+000	-1,0908221E+000	-9,835771227551419E+000	6,000000000000000E+000	-4,9651623E+000	38	1,0729076E-002
2	0	0	1	0	0	2,136335346031592E+003	-4,5336866E-001	-4,5384154E-001	-2,330827793168928E-001	6,000000000000000E+000	-5,5827279E+000	38	1,0578264E-004
2	1	0	1	0	0	2,231717343622033E+003	5,0045133E-001	5,0005877E-001	7,815651429661941E-002	7,000000000000000E+000	-5,5847387E+000	38	3,9082850E-005
2	0	0	1	0	0	2,326688241222866E+003	-3,7038437E-001	-3,7085545E-001	-1,952334814510484E-001	7,000000000000000E+000	-5,5888848E+000	38	7,2403403E-005
2	0	0	1	0	1	2,422315338807130E+003	-1,1732330E+000	-1,1737698E+000	-1,247379522226515E+001	7,000000000000000E+000	-6,1112733E+000	38	1,4641364E-002
2	0	0	1	0	1	2,518963736365593E+003	-2,0674856E-001	-2,0715922E-001	-3,207089017480861E-002	7,000000000000000E+000	-6,4022236E+000	38	6,6437806E-006
2	1	0	1	0	1	2,612668333998401E+003	3,4947869E-001	3,4909245E-001	-1,725252333723060E-002	8,000000000000000E+000	-6,4021306E+000	38	-6,0227258E-006
2	0	0	1	0	1	2,709316631556860E+003	-6,1700439E-001	-6,1750740E-001	-1,001849799346349E+000	8,000000000000000E+000	-6,4202185E+000	38	6,1864965E-004
2	0	0	1	0	0	2,804943729141123E+003	-9,2661273E-001	-9,2716980E-001	-4,863288979087635E+000	8,000000000000000E+000	-7,1364241E+000	38	4,5090946E-003
2	0	0	1	0	0	2,900325726731564E+003	2,7207477E-002	2,6800083E-002	-1,554295432579422E-002	9,000000000000000E+000	-7,2201719E+000	38	-4,1655247E-007
2	0	0	1	0	0	2,995296724332395E+003	1,0285870E-001	1,0249221E-001	-3,692194889769745E-002	9,000000000000000E+000	-7,2203326E+000	38	-3,7842119E-006
2	0	0	1	0	0	3,091944921890870E+003	-8,6362356E-001	-8,6412358E-001	-3,701859368640783E+000	9,000000000000000E+000	-7,2893147E+000	38	3,1988639E-003
2	0	0	1	0	1	3,187572119475124E+003	-6,7999274E-001	-6,8053931E-001	-1,141660453491332E+000	9,000000000000000E+000	-7,9910479E+000	38	7,7694480E-004
2	0	0	1	0	1	3,282954117065558E+003	2,7382734E-001	2,7344126E-001	8,559694358153680E-003	1,000000000000000E+001	-8,0072746E+000	38	2,3405735E-006
2	0	0	1	0	1	3,377925114666388E+003	-1,4376122E-001	-1,4421543E-001	-6,671882484482144E-002	1,000000000000000E+001	-8,0086327E+000	38	9,6218846E-006
2	0	0	1	0	1	3,474573312224849E+003	-1,1102436E+000	-1,1108255E+000	-9,268679286619061E+000	1,000000000000000E+001	-8,2262068E+000	38	1,0295886E-002
2	0	0	1	0	0	3,570200509809103E+003	-4,3337274E-001	-4,3380898E-001	-1,878940718221442E-001	1,000000000000000E+001	-8,7638311E+000	38	8,1510138E-005
2	1	0	1	0	0	3,665582507399551E+003	5,2044725E-001	5,2003974E-001	8,754050517422907E-002	1,100000000000000E+001	-8,7659235E+000	38	4,5524543E-005
2	0	0	1	0	0	3,760553505000382E+003	-3,9038140E-001	-3,9092556E-001	-2,209971183702679E-001	1,100000000000000E+001	-8,7710094E+000	38	8,6393418E-005
2	0	0	1	0	1	3,856180502584655E+003	-1,1532370E+000	-1,1538737E+000	-1,033048306566727E+001	1,100000000000000E+001	-9,2526236E+000	38	1,1920072E-002
2	0	0	1	0	1	3,952828900143097E+003	-1,8675251E-001	-1,8723044E-001	-1,967444261240228E-002	1,100000000000000E+001	-9,4892845E+000	38	3,6836545E-006
2	0	0	1	0	1	4,046533497775919E+003	3,2948264E-001	3,2915562E-001	-1,658836591335011E-002	1,200000000000000E+001	-9,4890757E+000	38	-5,4601537E-006
2	0	0	1	0	1	4,143181895955073E+003	-6,3700145E-001	-6,3751191E-001	-9,677949758951740E-001	1,200000000000000E+001	-9,5065660E+000	38	6,1698083E-004
2	0	0	1	0	0	4,238808894797301E+003	-9,0661681E-001	-9,0713680E-001	-4,169567426570524E+000	1,200000000000000E+001	-1,0174786E+001	38	3,7823680E-003
2	0	0	1	0	0	4,334190893642473E+003	4,7203578E-002	4,6780996E-002	-1,434446326372708E-002	1,300000000000000E+001	-1,0242797E+001	38	-6,7104827E-007
2	0	0	1	0	0	4,429161892492659E+003	8,2862727E-002	8,2471848E-002	-3,895586102538662E-002	1,300000000000000E+001	-1,0243385E+001	38	-3,2127618E-006
2	0	0	1	0	0	4,525810291322530E+003	-8,8362157E-001	-8,8409442E-001	-3,775587981413675E+000	1,300000000000000E+001	-1,0313527E+001	38	3,3379763E-003
2	0	0	1	0	1	4,621437290164744E+003	-6,5999663E-001	-6,6039121E-001	-8,791473370792531E-001	1,300000000000000E+001	-1,0961185E+001	38	5,8058120E-004
2	1	0	1	0	1	4,716819289009924E+003	2,9382330E-001	2,9347828E-001	5,343359018921544E-003	1,400000000000000E+001	-1,0973802E+001	38	1,5681599E-006
2	1	0	1	0	1	4,811790287860102E+003	-1,6375722E-001	-1,6423540E-001	-6,626558785708658E-002	1,400000000000000E+001	-1,0975610E+001	38	1,0883155E-005
2	0	0	1	0	1	4,908438586689968E+003	-1,1302407E+000	-1,1307722E+000	-9,214050442322474E+000	1,400000000000000E+001	-1,1194123E+001	38	1,0418992E-002
2	0	0	1	0	0	5,004065685532187E+003	-4,1337660E-001	-4,1391310E-001	-1,670174740886041E-001	1,400000000000000E+001	-1,1673788E+001	38	6,9130721E-005
2	1	0	1	0	0	5,099247684379792E+003	5,3844333E-001	5,3807110E-001	1,040875043909761E-001	1,500000000000000E+001	-1,1677229E+001	38	5,6006476E-005
2	0	0	1	0	0	5,194418683227559E+003	-4,1037726E-001	-4,1089353E-001	-2,507888295935432E-001	1,500000000000000E+001	-1,1684664E+001	38	1,0304751E-004
2	0	0	1	0	1	5,290045682069773E+003	-1,1332409E+000	-1,1338506E+000	-9,290955547249403E+000	1,500000000000000E+001	-1,2164950E+001	38	1,0534556E-002
2	0	0	1	0	1	5,386694080899644E+003	-1,6675654E-001	-1,6722009E-001	-4,093988467294052E-002	1,500000000000000E+001	-1,2372670E+001	38	6,8459713E-006
2	1	0	1	0	1	5,480398679765145E+003	3,0948672E-001	3,0914229E-001	-2,453524394498660E-002	1,600000000000000E+001	-1,2373231E+001	38	-7,5848816E-006
2	0	0	1	0	1	5,577047078595002E+003	-6,5699744E-001	-6,5754342E-001	-1,020131082598567E+000	1,600000000000000E+001	-1,2392719E+001	38	6,7078049E-004
2	0	0	1	0	0	5,672674077437216E+003	-8,8662082E-001	-8,8706326E-001	-3,524145461200355E+000	1,600000000000000E+001	-1,3026649E+001	38	3,1261400E-003
2	0	0	1	0	0	5,768056076282395E+003	6,7199558E-002	6,6786051E-002	-1,376016790607287E-002	1,700000000000000E+001	-1,3082522E+001	38	-9,1898727E-007
2	1	0	1	0	0	5,863027075132588E+003	6,2866740E-002	6,2540837E-002	-4,309896669760704E-002	1,700000000000000E+001	-1,3083100E+001	38	-2,6954453E-006
2	0	0	1	0	0	5,959675473962445E+003	-9,0361756E-001	-9,0416843E-001	-3,867542236762951E+000	1,700000000000000E+001	-1,3155786E+001	38	3,4969095E-003
2	0	0	1	0	1	6,055302472804673E+003	-6,4000064E-001	-6,4045525E-001	-7,092544844846298E-001	1,700000000000000E+001	-1,3767101E+001	38	4,5424575E-004
2	0	0	1	0	1	6,150684471649838E+003	3,1381941E-001	3,1341586E-001	1,068062076154262E-002	1,800000000000000E+001	-1,3778217E+001	38	3,3474760E-006
2	0	0	1	0	1	6,245655470500031E+003	-1,8375330E-001	-1,8414514E-001	-7,964501367901999E-002	1,800000000000000E+001	-1,3780390E+001	38	1,4666242E-005
2	0	0	1	0	1	6,342303869329859E+003	-1,1502378E+000	-1,1507986E+000	-9,718092680484745E+000	1,800000000000000E+001	-1,4009014E+001	38	1,1183567E-002
2	0	0	1	0	0	6,437930868172116E+003	-3,9338064E-001	-3,9392993E-001	-1,172132321760300E-001	1,800000000000000E+001	-1,4456726E+001	38	4,6173802E-005
2	1	0	0	0	0	6,508739667314803E+003	3,1498584E-001	3,1462029E-001	8,576394319534275E-002	1,900000000000000E+001	-1,4458845E+001	38	2,6983076E-005